File: concrete testing.csv
Sample ID,Cement (kg),Water (kg),Sand (kg),Gravel (kg),Age (days),Compressive Strength (MPa),Accepted
Sample_1,312.418,170.99,566.241,809.219,30,25.3215,Yes
Sample_3,316.192,150.894,560.379,958.639,16,55.8266,Yes
Sample_5,294.146,160.473,505.319,1055.66,27,14.3716,No
Sample_7,339.48,163.428,600.06,1048.6,63,28.6515,Yes
Sample_9,288.263,165.743,632.962,1108.27,39,44.0829,Yes
Sample_11,288.415,169.761,519.622,990.636,24,30.678,Yes
Sample_13,306.049,181.129,561.543,871.284,63,50.5825,Yes
Sample_15,256.877,176.039,641.474,941.64,54,31.0974,Yes
Sample_17,274.679,140.229,586.774,848.065,33,46.3815,Yes
Sample_19,277.299,145.195,631.771,954.884,58,31.3986,Yes
Sample_21,336.641,157.843,602.997,1120.03,38,28.209,Yes
Sample_23,301.688,149.635,668.033,958.857,31,19.7434,No
Sample_25,286.39,175.913,449.024,813.026,29,30.7136,Yes
Sample_27,271.225,150.57,690.026,1019.04,58,23.4508,No
Sample_29,284.984,159.203,610.483,949.019,70,47.4554,Yes
Sample_31,284.957,146.139,640.356,751.167,39,5.79581,No
Sample_33,299.663,155.988,623.818,1045.35,24,39.0425,Yes
Sample_35,320.564,142.752,653.01,1005.9,39,24.0083,No
Sample_37,305.222,131.614,619.621,965.745,57,40.5932,Yes
Sample_39,266.795,153.367,598.721,903.727,78,-0.560064,No
Sample_41,318.462,175.259,565.264,1061.02,50,44.6027,Yes
Sample_43,297.109,166.18,573.796,941.347,16,26.97,Yes
Sample_45,263.037,147.411,558.879,1071.46,55,41.0152,Yes
Sample_47,288.484,159.785,600.01,1115.91,72,12.5077,No
Sample_49,308.59,172.148,583.605,1042.55,42,8.01365,No
Sample_51,308.102,140.617,641.255,862.833,53,27.766,Yes
Sample_53,283.077,157.41,567.094,971.145,46,31.1496,Yes
Sample_55,325.775,141.745,532.706,1173.49,48,45.0378,Yes
Sample_57,279.02,149.617,576.189,944.445,88,25.5912,Yes
Sample_59,308.282,158.154,613.128,879.785,64,34.4452,Yes
Sample_61,288.021,161.575,642.545,1031.75,60,55.1577,Yes
Sample_63,272.342,167.231,619.523,990.661,71,22.7562,No
Sample_65,320.313,144.563,613.268,848.553,30,41.7652,Yes
Sample_67,298.2,130.58,478.059,1175.49,59,23.2501,No
Sample_69,309.041,142.984,671.137,1022.53,24,21.6147,No
Sample_71,309.035,149.296,648.27,873.067,11,41.3846,Yes
Sample_73,299.104,151.152,604.433,1020.23,36,39.7904,Yes
Sample_75,234.506,164.944,569.117,926.697,19,40.5361,Yes
Sample_77,302.176,126.651,630.789,1077.52,35,45.069,Yes
Sample_79,302.294,172.511,593.028,1023.4,64,44.8892,Yes
Sample_81,294.508,144.77,600.026,1120.05,8,30.5478,Yes
Sample_83,336.947,145.175,527.807,803.293,34,51.1501,Yes
Sample_85,279.788,155.729,572.473,981.415,83,15.1151,No
Sample_87,322.885,165.454,574.593,994.341,8,20.0151,No
Sample_89,286.756,146.114,577.338,804.89,32,6.91586,No
Sample_91,302.427,148.926,616.337,818.202,22,28.7087,Yes
Sample_93,282.449,160.914,631.11,990.554,46,46.2007,Yes
Sample_95,290.197,160.99,651.956,913.612,79,28.5614,Yes
Sample_97,307.403,151.18,633.524,1104.17,21,42.328,Yes
Sample_99,300.128,163.745,522.312,987.048,11,32.0569,Yes
Sample_101,264.616,164.97,618.82,929.311,80,15.2373,No
Sample_103,291.432,181.326,556.517,1164.95,83,42.8084,Yes
Sample_105,295.968,166.623,540.529,927.04,59,38.0901,Yes
Sample_107,347.155,159.192,554.969,870.686,21,51.6985,Yes
Sample_109,306.439,140.643,583.569,1045.06,46,47.3534,Yes
Sample_111,252.031,147.14,572.794,883.822,38,19.4704,No
Sample_113,301.506,163.051,602.046,969.914,76,37.7031,Yes
Sample_115,295.191,152.256,637.041,1038.9,10,34.5928,Yes
Sample_117,299.132,186.051,588.57,980.573,32,66.6283,Yes
Sample_119,328.571,153.016,471.883,1104.87,43,42.8848,Yes
Sample_121,319.776,166.583,720.631,951.644,46,49.2233,Yes
Sample_123,335.07,159.581,599.037,1049.12,29,34.1732,Yes
Sample_125,314.671,174.501,601.123,986.06,67,30.6772,Yes
Sample_127,275.237,154.54,540.959,809.064,86,30.5078,Yes
Sample_129,302.491,149.038,635.769,1007.27,59,57.0632,Yes
Sample_131,261.233,154.82,621.924,991.077,50,13.4367,No
Sample_133,273.442,174.206,633.643,826.88,15,13.2324,No
Sample_135,277.014,146.338,582.298,1004.13,75,35.7241,Yes
Sample_137,280.419,167.842,605.093,1095.15,60,20.8825,No
Sample_139,320.338,158.961,538.045,1047.35,62,11.6319,No
Sample_141,305.686,145.537,608.238,1084.68,83,41.7502,Yes
Sample_143,259.813,147.749,608.667,990.091,84,31.1496,Yes
Sample_145,306.497,147.404,588.84,1043.23,48,57.0001,Yes
Sample_147,269.076,133.556,519.955,929.237,74,31.1507,Yes
Sample_149,313.049,173.918,594.837,988.933,39,18.7503,No
Sample_151,306.262,135.129,591.207,1084.2,62,50.4558,Yes
Sample_153,282.999,140.416,601.044,709.301,57,24.1012,No
Sample_155,307.327,174.63,536.992,896.146,49,21.0147,No
Sample_157,346.644,139.678,581.24,876.257,44,9.21719,No
Sample_159,270.217,164.726,664.082,1132.86,11,24.2816,No
Sample_161,275.633,112.509,544.427,939.35,60,11.3851,No
Sample_163,328.965,129.156,624.911,954.091,16,43.5288,Yes
Sample_165,324.084,165.339,679.027,884.564,10,17.5216,No
Sample_167,320.552,170.764,559.457,961.008,86,13.2059,No
Sample_169,293.865,158.921,588.299,990.338,31,46.9052,Yes
Sample_171,277.762,161.384,649.367,905.425,42,31.0947,Yes
Sample_173,298.072,151.563,584.008,868.287,15,39.5414,Yes
Sample_175,306.917,138.691,558.243,899.778,59,-4.40295,No
Sample_177,300.325,124.606,519.617,853.321,49,28.7233,Yes
Sample_179,293.384,135.171,701.18,1097.53,69,19.4797,No
Sample_181,315.642,152.698,590.498,1097.84,10,38.1156,Yes
Sample_183,273.228,163.775,590.98,889.633,51,3.90649,No
Sample_185,294.413,135.156,489.407,921.98,85,70.3996,Yes
Sample_187,311.831,135.263,528.802,880.321,48,40.7186,Yes
Sample_189,278.83,158.251,578.538,1089.3,82,0.964278,No
Sample_191,288.837,151.581,520.094,959.031,7,25.6789,Yes
Sample_193,305.352,140.979,701.215,1228.17,23,36.3633,Yes
Sample_195,304.33,126.105,609.485,846.496,52,28.6126,Yes
Sample_197,277.904,149.705,621.294,1071.27,45,40.3822,Yes
Sample_199,301.455,153.359,567.926,962.768,68,0.254361,No
Sample_201,308.945,151.878,690.217,1018.52,29,42.1588,Yes
Sample_203,327.076,151.834,635.988,1022.23,10,13.1379,No
Sample_205,265.558,150.733,552.178,904.768,65,24.8723,No
Sample_207,312.876,139.47,674.206,922.734,74,22.1392,No
Sample_209,312.876,128.961,584.347,1090.04,8,55.6094,Yes
Sample_211,314.272,131.342,537.48,1118.35,37,45.0168,Yes
Sample_213,323.85,139.224,644.117,1166.72,54,46.5098,Yes
Sample_215,292.118,145.576,576.498,1073.56,49,37.3677,Yes
Sample_217,280.679,139.898,578.164,834.338,55,48.8075,Yes
Sample_219,287.866,137.47,704.986,926.47,63,42.6101,Yes
Sample_221,357.866,132.186,582.083,894.986,21,30.1232,Yes
Sample_223,317.157,159.507,637.21,1137.05,74,22.6419,No
Sample_225,288.202,147.221,567.531,1028.38,70,30.8021,Yes
Sample_227,301.607,150.657,670.98,915.315,42,33.6987,Yes
Sample_229,282.117,164.458,506.673,1077.93,55,44.5072,Yes
Sample_231,281.741,141.638,565.769,958.209,61,43.6314,Yes
Sample_233,301.139,148.676,501.495,892.915,74,37.5587,Yes
Sample_235,353.599,137.945,539.441,871.954,37,2.35773,No
Sample_237,249.371,175.166,600.714,1100.74,59,24.6,No
Sample_239,283.455,158.535,579.648,1018.47,29,51.6731,Yes
Sample_241,280.187,144.313,605.295,1001.25,22,19.8268,No
Sample_243,312.625,141.275,698.822,833.14,27,42.6043,Yes
Sample_245,269.993,140.261,680.861,982.72,23,50.4468,Yes
Sample_247,288.126,150.511,555.061,1044.13,83,-1.02898,No
Sample_249,344.136,153.507,590.544,1022.9,36,25.2132,Yes
Sample_251,268.478,154.963,593.623,1060.32,24,-7.41468,No
Sample_253,353.054,120.094,527.441,1063.87,68,42.0615,Yes
Sample_255,262.016,168.415,537.38,1036.76,58,47.6726,Yes
Sample_257,331.673,175.089,644.344,911.893,50,45.1995,Yes
Sample_259,311.095,139.425,469.789,1118.67,50,33.9835,Yes
Sample_261,276.827,158.375,621.837,976.189,40,24.2881,No
Sample_263,218.968,158.081,661.789,909.539,75,19.1907,No
Sample_265,293.686,152.54,634.011,1066.54,16,32.5373,Yes
Sample_267,340.81,148.332,511.071,912.168,47,33.2837,Yes
Sample_269,288.999,138.967,574.791,1023.14,75,34.2428,Yes
Sample_271,336.032,166.37,617.384,978.433,16,79.0988,Yes
Sample_273,329.079,133.615,566.215,1088.14,57,15.5103,No
Sample_275,275.462,168.196,545.638,908.373,14,19.4772,No
Sample_277,304.976,184.79,633.969,1117.02,84,13.8631,No
Sample_279,301.745,152.881,633.316,1007.96,55,22.7953,No
Sample_281,302.838,152.003,513.71,913.83,23,44.1734,Yes
Sample_283,339.65,160.622,659.705,784.762,64,18.3537,No
Sample_285,353.326,138.21,576.78,843.851,68,40.8247,Yes
Sample_287,296.205,122.457,639.17,966.988,67,21.5364,No
Sample_289,307.025,133.45,570.124,937.227,44,34.7478,Yes
Sample_291,294.797,155.829,686.945,1141.85,69,23.4837,No
Sample_293,285.266,149.909,604.266,1127.7,56,25.2693,Yes
Sample_295,308.925,151.227,558.478,879.298,19,13.8828,No
Sample_297,322.49,163.786,620.92,1167.64,68,10.1855,No
Sample_299,320.322,154.011,632.523,884.665,55,41.7435,Yes
Sample_301,279.275,139.979,652.597,1033.86,16,27.5604,Yes
Sample_303,318.682,147.376,580.801,1021.66,63,17.406,No
Sample_305,299.477,158.048,699.783,1110.08,77,45.3478,Yes
Sample_307,331.942,150.423,630.336,1053.2,27,27.1544,Yes
Sample_309,313.677,166.288,626.725,1176.12,62,39.4471,Yes
Sample_311,294.558,149.625,583.967,881.813,60,22.2289,No
Sample_313,320.635,170.853,611.504,1208.6,34,48.1136,Yes
Sample_315,332.637,150.155,633.296,963.854,27,14.2702,No
Sample_317,317.049,134.023,641.947,994.61,53,49.8588,Yes
Sample_319,308.104,140.857,572.085,1112.19,63,54.1129,Yes
Sample_321,302.425,150.85,621.975,1019.61,71,57.9912,Yes
Sample_323,279.544,148.943,622.889,845.104,48,38.608,Yes
Sample_325,274.85,150.967,599.72,1110.39,46,39.8324,Yes
Sample_327,328.953,135.91,545.415,999.76,31,25.6474,Yes
Sample_329,315.603,131.855,634.777,890.784,58,12.8706,No
Sample_331,299.694,172.961,585.302,1091.38,62,49.1917,Yes
Sample_333,301.895,146.798,524.106,1158.98,76,56.271,Yes
Sample_335,324.378,152.23,644.519,1139.96,79,29.0189,Yes
Sample_337,279.363,140.799,625.033,863.418,72,30.36,Yes
Sample_339,310.323,144.177,600.353,1050.28,89,48.2068,Yes
Sample_341,279.444,152.409,634.941,1070.61,69,42.14,Yes
Sample_343,306.124,156.554,624.601,897.363,48,32.4648,Yes
Sample_345,288.224,164.243,492.333,903.529,26,54.1623,Yes
Sample_347,263.798,111.691,576.058,971.562,23,20.1197,No
Sample_349,282.039,129.497,634.674,1067.89,53,28.1505,Yes
Sample_351,307.773,132.448,652.997,948.06,69,36.8059,Yes
Sample_353,321.441,158.122,634.178,1042.83,25,45.865,Yes
Sample_355,299.525,141.352,660.597,940.619,75,37.676,Yes
Sample_357,299.537,141.806,581.536,1007.86,88,29.2541,Yes
Sample_359,308.068,127.816,511.188,1045.82,87,31.1848,Yes
Sample_361,312.984,149.77,548.531,884.667,42,25.1047,Yes
Sample_363,297.281,151.794,523.882,820.611,51,26.0602,Yes
Sample_365,317.254,167.949,568.537,929.098,31,20.7908,No
Sample_367,305.602,149.59,573.21,947.412,36,17.0117,No
Sample_369,302.442,143.351,544.174,1040.05,74,27.5568,Yes
Sample_371,300.613,147.406,592.205,992.256,79,54.9924,Yes
Sample_373,336.279,129.421,608.001,1145.09,57,21.0625,No
Sample_375,353.83,172.068,655.87,831.734,20,9.82605,No
Sample_377,321.808,139.964,582.012,972.019,24,53.0527,Yes
Sample_379,354.745,140.916,579.327,1050.6,63,40.309,Yes
Sample_381,279.007,160.169,551.812,1216.51,18,15.6803,No
Sample_383,246.903,182.36,617.189,1021.26,23,34.8123,Yes
Sample_385,281.022,161.131,601.64,1110.59,81,41.5666,Yes
Sample_387,308.544,169.526,588.48,918.378,87,27.2478,Yes
Sample_389,323.761,150.48,644.51,1086.16,85,38.0224,Yes
Sample_391,277.54,156.9,507.691,842.3,15,-4.29833,No
Sample_393,266.994,180.201,525.174,992.603,34,27.1753,Yes
Sample_395,329.486,144.52,595.828,1197.25,66,26.2864,Yes
Sample_397,257.172,129.793,553.907,1050.56,33,41.978,Yes
Sample_399,297.137,168.006,610.363,1227.14,82,47.4489,Yes
Sample_401,260.139,134.296,563.913,1049.14,71,25.1058,Yes
Sample_403,300.131,167.786,572.666,1019.55,7,4.62119,No
Sample_405,288.748,164.941,683.673,1043.6,53,44.8588,Yes
Sample_407,273.309,128.673,535.021,1068.21,68,47.4332,Yes
Sample_409,303.007,145.16,640.57,977.753,52,21.9254,No
Sample_411,317.79,169.923,640.939,932.507,33,56.0668,Yes
Sample_413,261.647,156.838,543.873,1199.16,45,32.925,Yes
Sample_415,308.308,140.347,650.883,944.988,88,34.0822,Yes
Sample_417,338.779,150.855,627.574,1084.07,78,3.63332,No
Sample_419,329.482,172.927,619.535,870.737,40,33.3429,Yes
Sample_421,351.519,158.074,652.366,939.265,42,32.8614,Yes
Sample_423,293.776,144.526,588.53,1042.58,44,29.8206,Yes
Sample_425,316.134,134.328,523.445,822.399,15,63.087,Yes
Sample_427,275.877,180.843,628.603,1025.26,78,16.2266,No
Sample_429,326.461,146.681,656.218,1044.42,41,54.2386,Yes
Sample_431,270.419,154.611,628.23,1046.65,11,13.9697,No
Sample_433,293.265,162.907,598.822,1052.23,36,43.4501,Yes
Sample_435,337.559,147.493,611.265,1227.24,45,47.8094,Yes
Sample_437,340.715,146.27,593.426,1057.37,31,67.0703,Yes
Sample_439,257.415,157.365,578.162,871.169,82,52.7774,Yes
Sample_441,309.602,159.943,687.479,1014.55,84,41.7438,Yes
Sample_443,248.314,152.715,535.387,1014.1,37,26.995,Yes
Sample_445,267.388,155.995,574.851,1069.54,54,44.0828,Yes
Sample_447,309.165,142.071,614.711,988.849,44,1.73285,No
Sample_449,287.153,168.574,560.812,961.23,74,46.8629,Yes
Sample_451,298.433,154.632,554.19,952.235,7,41.3905,Yes
Sample_453,275.357,153.611,596.641,987.235,63,36.2867,Yes
Sample_455,286.744,158.483,634.103,707.055,11,9.67941,No
Sample_457,297.324,161.3,570.997,1108.88,48,43.5806,Yes
Sample_459,286.159,169.346,624.984,1001.88,24,29.8013,Yes
Sample_461,349.118,147.923,603.798,1169.57,80,31.8172,Yes
Sample_463,282.507,146.865,624.112,1015.67,23,27.4922,Yes
Sample_465,297.192,141.292,643.458,1017.53,77,44.6703,Yes
Sample_467,315.354,175.049,561.836,958.818,47,31.1743,Yes
Sample_469,286.737,132.062,634.166,954.545,76,31.9937,Yes
Sample_471,293.124,167.949,653.649,990.86,64,14.847,No
Sample_473,262.12,147.99,560.701,1005.23,40,39.5992,Yes
Sample_475,341.124,138.227,615.191,928.298,21,36.019,Yes
Sample_477,314.414,148.186,588.457,1097.78,76,34.5829,Yes
Sample_479,376.972,136.688,533.07,1115.36,38,40.3003,Yes
Sample_481,296.802,160.836,569.707,969.782,9,15.9202,No
Sample_483,259.839,175.904,699.626,963.869,57,33.1151,Yes
Sample_485,281.091,153.37,572.522,898.94,82,43.8775,Yes
Sample_487,283.836,128.725,580.643,1153.02,23,33.95,Yes
Sample_489,342.179,127.115,601.269,907.544,19,33.9938,Yes
Sample_491,299.801,141.722,599.308,967.298,10,4.6352,No
Sample_493,301.934,141.536,575.344,1049.62,23,11.8914,No
Sample_495,338.078,173.132,537.175,1051.15,12,30.5981,Yes
Sample_497,274.069,180.923,586.052,1081.55,75,44.9806,Yes
Sample_499,278.11,165.361,639.519,981.685,15,20.2219,No
Sample_501,323.154,161.675,628.531,1118.06,89,50.4259,Yes
Sample_503,265.036,137.727,583.435,1004.52,30,34.9693,Yes
Sample_505,283.734,147.447,545.742,949.822,30,35.9915,Yes
Sample_507,285.19,160.446,747.455,1032.3,9,19.5285,No
Sample_509,301.213,151.326,532.446,1050.02,46,15.5472,No
Sample_511,306.761,132.875,624.093,1122.08,60,27.9844,Yes
Sample_513,294.026,139.248,627.444,1171.2,62,34.8581,Yes
Sample_515,285.581,148.76,593.727,1043.48,83,30.3624,Yes
Sample_517,312.523,172.702,604.295,920.444,52,56.0512,Yes
Sample_519,302.483,134.637,588.51,1127.95,19,10.6616,No
Sample_521,258.265,168.316,608.761,1050.27,12,10.7604,No
Sample_523,283.434,146.603,618.374,903.434,42,26.8926,Yes
Sample_525,280.919,144.417,646.09,941.822,8,42.2037,Yes
Sample_527,259.311,178.269,621.005,980.206,58,26.3399,Yes
Sample_529,306.493,142.667,702.827,816.832,58,34.1811,Yes
Sample_531,315.965,152.113,623.682,1149.74,28,41.936,Yes
Sample_533,298.348,154.848,627.776,989.657,73,38.3691,Yes
Sample_535,283.704,143.009,579.132,1209.58,64,10.9289,No
Sample_537,278.49,157.704,648.791,1067.89,75,40.5989,Yes
Sample_539,325.157,132.451,537.714,995.097,19,21.7389,No
Sample_541,320.892,149.587,564.521,1033.09,63,24.0623,No
Sample_543,313.245,174.919,589.149,1087.94,18,48.6347,Yes
Sample_545,238.209,140.967,721.336,1137.65,80,48.733,Yes
Sample_547,314.427,135.024,531.119,1068.71,46,30.8459,Yes
Sample_549,309.279,161.491,651.069,888.842,51,42.7943,Yes
Sample_551,302.165,148.498,520.701,946.855,9,64.1067,Yes
Sample_553,329.195,136.83,693.548,1034.67,17,43.6176,Yes
Sample_555,308.44,146.603,556.585,815.992,62,15.9204,No
Sample_557,287.81,163.704,468.213,1064.05,40,31.9271,Yes
Sample_559,309.861,172.39,616.391,988.687,78,29.382,Yes
Sample_561,307.244,149.679,549.305,1023.28,81,35.9058,Yes
Sample_563,321.778,113.636,553.729,781.008,72,28.2228,Yes
Sample_565,330.03,161.053,555.233,1095.84,47,45.3358,Yes
Sample_567,249.047,151.005,550.209,1022.91,38,22.4905,No
Sample_569,253.23,126.562,642.923,1022.43,63,21.136,No
Sample_571,300.46,161.914,601.912,970.252,86,36.2064,Yes
Sample_573,308.173,154.403,585.016,1032.08,18,26.3472,Yes
Sample_575,320.735,156.996,731.04,872.994,45,41.6581,Yes
Sample_577,305.89,125.773,673.209,916.805,51,13.7248,No
Sample_579,263.035,138.981,614.032,918.462,76,28.6008,Yes
Sample_581,308.462,153.009,618.605,1212.48,76,39.2678,Yes
Sample_583,315.82,134.763,597.344,1192.04,8,32.9234,Yes
Sample_585,304.547,156.432,654.823,1007.13,78,49.0354,Yes
Sample_587,288.516,152.647,534.038,930.431,55,23.9424,No
Sample_589,320.758,137.586,559.998,1123.96,39,20.4728,No
Sample_591,301.789,133.918,661.872,1106.84,11,26.0146,Yes
Sample_593,311.974,156.548,597.859,1230.36,44,44.1985,Yes
Sample_595,325.938,114.556,642.422,1125.92,70,8.95294,No
Sample_597,293.253,159.287,569.665,902.662,85,45.1903,Yes
Sample_599,288.893,150.312,660.004,1033.61,54,20.9168,No
Sample_601,318.925,147.257,506.172,917.606,88,24.8122,No
Sample_603,321.74,140.311,568.232,1204.98,60,37.8256,Yes
Sample_605,310.336,142.759,568.783,1078.21,34,69.0157,Yes
Sample_607,280.655,151.84,569.763,922.015,19,47.2467,Yes
Sample_609,255.532,154.846,644.853,865.042,86,14.2795,No
Sample_611,316.359,145.623,632.576,1003.4,75,35.1603,Yes
Sample_613,306.999,163.247,589.925,982.091,51,29.0293,Yes
Sample_615,361.144,147.293,629.94,1069.29,30,41.196,Yes
Sample_617,302.735,154.481,563.291,901.42,64,34.3716,Yes
Sample_619,312.025,143.605,622.864,1119.48,32,27.3116,Yes
Sample_621,280.238,151.699,635.225,862.714,48,57.0315,Yes
Sample_623,347.051,163.788,604.191,802.177,59,27.0605,Yes
Sample_625,339.83,178.099,620.488,1189.78,44,80.0337,Yes
Sample_627,275.26,143.29,670.168,916.568,59,25.3947,Yes
Sample_629,301.393,151.018,577.848,845.72,32,38.5123,Yes
Sample_631,257.688,157.271,614.829,1059.64,25,59.1042,Yes
Sample_633,296.05,140.347,609.865,976.403,70,16.3757,No
Sample_635,274.697,144.978,684.998,1042.15,57,38.5662,Yes
Sample_637,320.579,135.673,609.532,966.088,10,11.9404,No
Sample_639,267.751,180.938,548.374,987.627,70,31.9897,Yes
Sample_641,291.605,150.363,690.465,950.307,17,31.5231,Yes
Sample_643,293.51,148.805,557.618,901.004,81,41.0157,Yes
Sample_645,293.856,134.064,545.518,918.9,27,44.7388,Yes
Sample_647,232.578,147.193,581.475,1025.87,52,21.3177,No
Sample_649,294.227,167.811,600.781,1078.29,42,45.1121,Yes
Sample_651,346.224,158.694,554.612,1040.81,88,18.6369,No
Sample_653,293.278,152.916,625.54,1044.48,69,26.152,Yes
Sample_655,364.334,155.077,567.108,1014.94,37,21.3541,No
Sample_657,300.348,152.527,545.403,1000.72,7,24.9289,No
Sample_659,304.952,134.902,608.592,1016.05,49,8.78352,No
Sample_661,285.658,169.757,541.22,963.996,69,48.3983,Yes
Sample_663,299.181,118.172,629.861,1037.33,8,38.2647,Yes
Sample_665,282.179,169.455,623.16,1119.27,70,51.3476,Yes
Sample_667,293.626,135.01,642.409,1073.14,75,50.7604,Yes
Sample_669,233.726,162.609,627.615,985.785,8,10.2477,No
Sample_671,331.152,146.416,565.161,1102.95,66,53.483,Yes
Sample_673,291.433,144.124,613.022,885.698,37,12.6899,No
Sample_675,264.812,174.231,549.572,993.531,82,23.336,No
Sample_677,272.236,168.257,617.483,1007.32,55,9.36274,No
Sample_679,323.392,164.975,604.767,1119.17,55,22.8222,No
Sample_681,318.042,156.056,633.957,888.045,80,22.0235,No
Sample_683,286.887,136.444,583.528,1017.87,67,47.5375,Yes
Sample_685,269.447,132.314,616.753,1060.31,78,57.2971,Yes
Sample_687,293.992,143.031,623.463,1248.52,21,18.1876,No
Sample_689,317.774,154.249,637.839,1127.54,7,26.2695,Yes
Sample_691,290.976,158.8,549.166,1053.34,43,55.1486,Yes
Sample_693,272.973,163.069,598.035,1121.82,58,10.4581,No
Sample_695,314.828,151.896,616.693,1087.22,19,54.1308,Yes
Sample_697,308.153,134.995,654.088,942.825,61,34.2875,Yes
Sample_699,323.101,157.709,631.103,1093.31,72,45.2169,Yes
Sample_701,286.932,155.259,619.34,1106.52,33,30.581,Yes
Sample_703,282.391,159.521,700.614,908.368,64,44.99,Yes
Sample_705,261.084,156.147,612.465,985.962,52,27.1081,Yes
Sample_707,267.989,160.089,607.244,947.543,78,28.46,Yes
Sample_709,247.952,148.01,582.429,1042.41,77,19.6384,No
Sample_711,305.275,166.606,559.079,856.409,27,24.9347,No
Sample_713,286.377,117.41,624.993,1028.1,69,21.501,No
Sample_715,299.059,141.97,618.382,1101.26,26,24.4588,No
Sample_717,302.856,154.98,631.275,1324.31,64,15.0507,No
Sample_719,290.91,160.642,570.382,981.855,37,27.9411,Yes
Sample_721,307.695,157.697,697.708,1099.56,21,39.0852,Yes
Sample_723,266.295,161.082,547.055,836.197,16,43.7088,Yes
Sample_725,304.272,135.968,698.129,937.797,86,36.7344,Yes
Sample_727,300.461,141.961,650.573,1049.69,43,26.4552,Yes
Sample_729,286.506,155.509,562.876,880.03,29,36.2992,Yes
Sample_731,304.896,146.648,661.544,1085.8,86,26.9172,Yes
Sample_733,310.206,149.709,628.144,798.151,54,33.9412,Yes
Sample_735,325.729,161.999,699.353,1079.32,37,24.3226,No
Sample_737,306.401,134.195,583.243,954.215,79,24.1272,No
Sample_739,341.637,164.255,677.708,962.942,35,28.9332,Yes
Sample_741,253.978,148.433,620.743,928.532,55,14.4438,No
Sample_743,284.38,151.051,602.176,1032.17,78,6.75262,No
Sample_745,312.941,136.09,473.522,900.485,48,24.0214,No
Sample_747,304.669,164.628,612.066,782.293,48,24.8781,No
Sample_749,284.712,152.844,619.316,1142.89,33,4.26654,No
Sample_751,276.919,109.452,687.774,941.407,52,42.6544,Yes
Sample_753,275.603,140.189,576.71,1125.28,31,35.6904,Yes
Sample_755,276.265,157.668,596.303,930.775,33,22.1401,No
Sample_757,312.333,147.938,609.751,1010.34,80,8.54149,No
Sample_759,278.541,174.184,543.469,1027.74,58,3.18143,No
Sample_761,285.609,174.599,631.476,1032.21,60,31.622,Yes
Sample_763,364.002,151.132,644.768,918.699,12,34.7459,Yes
Sample_765,328.732,146.309,612.658,1022.58,76,30.9424,Yes
Sample_767,299.125,182.564,598.319,902.463,72,50.3614,Yes
Sample_769,284.326,151.848,574.179,1066.47,88,24.8809,No
Sample_771,317.694,150.654,589.707,1100.18,82,15.4276,No
Sample_773,315.81,140.66,591.161,921.8,43,15.1647,No
Sample_775,315.545,138.863,575.442,822.893,30,36.3215,Yes
Sample_777,281.822,140.823,587.191,816.886,71,67.5111,Yes
Sample_779,298.139,143.56,596.912,792.441,7,38.3111,Yes
Sample_781,304.443,128.905,643.726,984.968,52,24.7635,No
Sample_783,309.505,127.429,539.84,895.742,81,16.7008,No
Sample_785,313.995,151.237,575.64,1046.44,51,45.4827,Yes
Sample_787,320.848,145.362,561.5,1031.64,83,52.9612,Yes
Sample_789,298.246,154.788,577.194,1018.11,30,11.9326,No
Sample_791,310.74,121.872,629.751,1058.62,41,24.2585,No
Sample_793,306.789,147.598,579.35,1025.72,34,34.0294,Yes
Sample_795,272.974,153.198,598.428,1000.79,22,10.1738,No
Sample_797,299.011,145.214,628.656,983.566,87,36.261,Yes
Sample_799,300.708,166.14,582.019,900.664,85,1.62664,No
Sample_801,323.457,178.518,609.192,861.146,21,12.5253,No
Sample_803,302.403,139.374,617.49,878.272,71,39.1271,Yes
Sample_805,289.138,122.953,595.227,910.721,74,18.3926,No
Sample_807,305.553,154.007,595.97,1003.47,75,9.31487,No
Sample_809,331.394,126.282,645.77,1065.5,16,32.6034,Yes
Sample_811,295.328,142.754,594.162,900.614,88,22.7855,No
Sample_813,336.174,174.183,686.943,914.35,56,21.722,No
Sample_815,325.796,145.972,691.628,873.55,65,22.4189,No
Sample_817,306.676,117.723,624.103,961.718,9,27.4283,Yes
Sample_819,302.057,146.833,619.69,960.232,13,23.6335,No
Sample_821,287.068,148.031,586.056,960.01,32,31.5411,Yes
Sample_823,357.472,146.627,597.555,995.511,54,47.8319,Yes
Sample_825,288.862,152.53,597.38,932.988,8,28.1311,Yes
Sample_827,339.489,133.644,662.345,882.383,38,47.7848,Yes
Sample_829,289.495,148.521,647.572,1118.19,26,23.1281,No
Sample_831,266.389,160.623,514.806,979.748,38,18.6777,No
Sample_833,274.896,164.297,678.144,1103.61,83,35.8624,Yes
Sample_835,299.133,140.813,587.831,902.988,66,41.0741,Yes
Sample_837,338.763,132.844,695.207,1123.77,41,36.7468,Yes
Sample_839,324.608,149.502,710.939,903.195,60,38.8948,Yes
Sample_841,298.763,148.072,614.781,938.568,61,22.6061,No
Sample_843,271.932,141.769,673.847,1097.89,64,21.7998,No
Sample_845,304.161,152.398,610.839,1160.88,71,46.2798,Yes
Sample_847,307.229,168.986,570.557,1109.09,57,12.7931,No
Sample_849,284.057,164.542,569.606,985.006,59,35.3748,Yes
Sample_851,284.421,140.307,572.587,947.534,74,24.062,No
Sample_853,284.065,132.095,544.757,1129.61,58,58.6277,Yes
Sample_855,335.513,165.009,660.898,963.449,88,48.2505,Yes
Sample_857,279.191,170.887,564.104,860.421,86,18.8621,No
Sample_859,286.194,154.33,658.986,927.601,24,16.2767,No
Sample_861,305.073,147.985,573.439,954.805,72,30.6946,Yes
Sample_863,338.688,161.902,544.885,999.296,50,48.353,Yes
Sample_865,284.68,169.565,620.43,962.814,45,1.64223,No
Sample_867,307.147,165.488,558.071,1031.95,60,36.121,Yes
Sample_869,316.464,133.636,626.741,1013.99,86,28.9976,Yes
Sample_871,295.576,133.414,568.135,860.978,37,52.541,Yes
Sample_873,265.517,145.379,495.649,890.263,84,21.9974,No
Sample_875,299.172,169.655,598.447,926.063,8,28.0459,Yes
Sample_877,287.06,141.567,553.175,1095,20,29.8116,Yes
Sample_879,299.589,124.748,614.61,846.73,64,23.6274,No
Sample_881,363.173,164.473,488.088,1030.17,57,61.3953,Yes
Sample_883,287.764,131.485,569.657,815.621,47,30.2148,Yes
Sample_885,317.047,149.604,462.625,993.592,88,-5.8369,No
Sample_887,314.598,137.856,573.688,780.387,10,31.1836,Yes
Sample_889,314.766,142.892,580.749,1014.3,35,22.0283,No
Sample_891,320.512,158.194,607.063,1069.29,20,27.6757,Yes
Sample_893,326.667,143.454,638.41,920.006,11,27.1005,Yes
Sample_895,334.554,148.675,625.413,960.695,38,39.7014,Yes
Sample_897,295.822,146.118,495.794,1139.35,49,30.2996,Yes
Sample_899,330.163,158.414,585.628,1042.93,75,0.385364,No
Sample_901,309.217,160.454,597.724,944.388,15,41.9326,Yes
Sample_903,300.719,167.597,571.508,1166.91,39,36.2465,Yes
Sample_905,304.777,148.39,524.141,1161.48,15,26.0843,Yes
Sample_907,266.004,126.437,579.19,1132.54,63,17.6228,No
Sample_909,316.137,132.091,577.499,1058.59,84,30.2041,Yes
Sample_911,292.306,175.988,573.233,858.473,21,30.7447,Yes
Sample_913,306.235,159.571,563.452,1100.95,48,42.5451,Yes
Sample_915,297.618,122.984,634.275,850.098,85,49.2239,Yes
Sample_917,315.197,138.183,591.222,991.256,88,40.2634,Yes
Sample_919,288.839,147.478,604.903,1094.96,55,14.9073,No
Sample_921,326.841,120.311,564.058,1185.55,86,24.6728,No
Sample_923,303.324,133.909,590.265,965.357,20,43.339,Yes
Sample_925,329.876,181.111,604.588,973.734,68,19.221,No
Sample_927,286.027,112.046,594.189,1096.03,51,50.8834,Yes
Sample_929,339.138,166.514,678.906,882.063,64,30.1316,Yes
Sample_931,286.12,131.557,643.458,1067.15,64,53.552,Yes
Sample_933,263.8,143.02,555.538,1088.75,83,51.5131,Yes
Sample_935,311,189.665,643.802,1006.01,84,30.1483,Yes
Sample_937,274.469,153.806,569.801,1124.95,43,16.8246,No
Sample_939,306.095,166.287,518.026,965.056,50,11.3756,No
Sample_941,267.992,154.621,649.829,1037.92,75,58.0774,Yes
Sample_943,316.255,154.037,632.024,940.303,51,50.741,Yes
Sample_945,346.166,159.324,616.203,958.778,38,27.629,Yes
Sample_947,261.862,155.657,604.26,1053.76,73,62.3942,Yes
Sample_949,298.86,166.891,590.655,972.001,82,23.8073,No
Sample_951,293.969,123.405,660.3,1051.53,9,20.1214,No
Sample_953,268.712,136.414,623.334,1218.41,36,32.8044,Yes
Sample_955,297.946,141.065,552.554,941.935,32,29.6383,Yes
Sample_957,308.568,117.965,646.61,990.706,68,35.2343,Yes
Sample_959,314.244,165.841,656.781,1111.68,52,34.6539,Yes
Sample_961,316.068,149.177,558.774,926.837,31,15.1477,No
Sample_963,304.913,157.817,573.551,1004.93,19,22.3793,No
Sample_965,297.757,158.334,661.154,939.177,41,32.7575,Yes
Sample_967,283.09,147.04,617.625,1031.11,15,48.9515,Yes
Sample_969,298.996,147.076,508.97,1201.53,67,37.5921,Yes
Sample_971,303.203,158.903,504.387,960.28,50,29.5737,Yes
Sample_973,321.016,159.839,531.584,1034.76,37,26.6266,Yes
Sample_975,288.845,149.719,645.568,1035.57,8,18.6684,No
Sample_977,288.692,166.862,663.185,1050.62,83,23.4902,No
Sample_979,260.402,138.407,627.174,1056.81,64,12.5249,No
Sample_981,319.645,135.425,613.201,1136.26,80,64.0156,Yes
Sample_983,275.826,140.599,636.625,1315.21,49,61.8735,Yes
Sample_985,299.91,164.297,517.256,1024.29,36,48.112,Yes
Sample_987,337.585,160.876,593.865,1055.31,76,24.1475,No
Sample_989,294.476,140.378,543.49,1192.34,73,51.872,Yes
Sample_991,305.21,162.006,675.82,831.082,9,22.7911,No
Sample_993,293.821,167.834,603.602,802.451,63,17.4196,No
Sample_995,274.959,155.272,552.404,793.492,59,44.1914,Yes
Sample_997,344.942,149.602,612.888,792.219,49,36.8908,Yes
Sample_999,285.721,147.554,616.709,1164.34,64,36.3829,Yes
Sample_1000,314.315,138.826,592.237,1036.06,55,40.2294,Yes